STUDYID,USUBJID,SUBJID,SITEID,SITEGR1,ARM,TRT01P,TRT01PN,TRT01A,TRT01AN,TRTSDT,TRTEDT,TRTDUR,AVGDD,CUMDOSE,AGE,AGEGR1,AGEGR1N,AGEU,RACE,RACEN,SEX,ETHNIC,SAFFL,ITTFL,EFFFL,COMP8FL,COMP16FL,COMP24FL,DISCONFL,DSRAEFL,DTHFL,BMIBL,BMIBLGR1,HEIGHTBL,WEIGHTBL,EDUCLVL,DISONSDT,DURDIS,DURDSGR1,VISIT1DT,RFSTDTC,RFENDTC,VISNUMEN,RFENDT,DCDECOD,DCREASCD,MMSETOT
CDISCPILOT01,01-701-1146,1146,701,701,Xanomeline High Dose,Xanomeline High Dose,81,Xanomeline High Dose,81,2013-05-20,2013-06-26,38,70.3,2673,75,65-80,2,YEARS,WHITE,1,F,NOT HISPANIC OR LATINO,Y,Y,Y,N,N,N,Y,Y,,24.9,<25,147.3,54,16,2009-11-17,41.7,>=12,2013-05-07,2013-05-20,2013-06-30,7,2013-06-30,ADVERSE EVENT,Adverse Event,22
