STUDYID,DOMAIN,USUBJID,EXSEQ,EXTRT,EXDOSE,EXDOSU,EXDOSFRM,EXDOSFRQ,EXROUTE,VISITNUM,VISIT,VISITDY,EPOCH,EXSTDTC,EXENDTC,EXSTDY,EXENDY
CDISCPILOT01,EX,01-701-1146,1,XANOMELINE,54,mg,PATCH,QD,TRANSDERMAL,3,BASELINE,1,TREATMENT,2013-05-20,2013-06-03,1,15
CDISCPILOT01,EX,01-701-1146,2,XANOMELINE,81,mg,PATCH,QD,TRANSDERMAL,4,WEEK 2,14,TREATMENT,2013-06-04,2013-06-26,16,38
